Folder: fityk/gsoc_xylib/samples/uxd

Note: gsoc_xylib/README
CONTENT
============	
PURPOSE
SUPPORTED FORMATS
FILES
USAGE
============



PURPOSE
============
xylib aims to be a common X-Y data format reading library by providing a set of unified and user-friendly APIs to accomplish such a task. Many point data processing applications will be able to use this library to get a wider range of data file format support.

SUPPORTED FORMATS
============
X-Y plain text format: .txt, .asc
Siemens/Bruker uxd: .uxd
Diffrac-AT raw v1, v2 & v3: .raw

FILES
============
xylib.h 
xylib.cpp 
	Implementation of the xylib functions and classes.
	
testmain.h
testmain.cpp
	A simple test program to test the lib. Tested sample files are located in the directory ./test
	
test/
	Directory containing the original sample files. They are categorized into different sub-directories according to their types. For more detailed info (like where they are from), see the README file in each sub-directory.
	
out/
	Directory containing the exported X-Y plain text files. They are organized as the same way as files in test/. For example, "test/uxd/sample3.uxd" will be exported to "out/uxd/sample3.uxd_tr.txt".

	
USAGE
============
To run the test program, just change current directory to here and "make", "./testmain" is the executable.
To use xylib in your program, see how "testmain.cpp" and "testmain.h" do. Note that all classes, variables, functions are in the namespace "xylib".

File: sample3.uxd
; C:\httpd\HtDocs\course\content\week-1\sample3.raw - (Diffrac AT V1) File converted by XCH V1.0
_FILEVERSION=1
_SAMPLE='ZK'
_WL1=1.540560
_WL2=1.544430
_WL3=1.392600
_WLRATIO=0.514000
_ANODE='Cu'
; (Data for Range number 1)
_DRIVE='COUPLED'
_STEPTIME=15
_STEPSIZE=0.020000
_STEPMODE='C'
_START=3.990000
_2THETA=3.990000
_THETA=0.000000
_KHI=0.000000
_PHI=0.000000
_TEMPERATURE=-17
_COUNTS
     2668      2571      2525      2567      2532      2551      2597      2576
     2126      2076      2110      2076      2074      2146      2085      2076
     1803      1852      1824      1784      1875      1840      1714      1862
     1556      1652      1608      1620      1597      1561      1602      1575
     1409      1425      1545      1493      1461      1494      1484      1393
     1297      1333      1259      1263      1273      1329      1274      1309
     1243      1271      1246      1254      1238      1222      1246      1140
     1150      1116      1247      1155      1104      1185      1161      1166
     3073      3316      3807      4184      4478      4742      5292      5812
     1410      1291      1220      1207      1229      1158      1169      1218
      987       953       938       978       951       936      1029       949
      888       897       948       943       950       921       909       914
      909       906       923       959       929       920       876       902
      967       967      1058      1033      1079      1077      1102      1206
     5065      4010      3132      2241      1790      1394      1172      1115
     1060      1074      1118      1076      1110      1206      1270      1248
      981       937       991       924       920       952       933       960
      922       949       957       967       968       899       995       905
     1053      1142      1192      1205      1285      1283      1417      1463
     4068      2839      2041      1559      1314      1213      1116      1078
      993       990      1004       964       937       984       961      1001
     1411      1518      1602      1842      2044      2314      2789      3149
     1003       963       989      1055      1026       997       974       957
     1046      1022      1090      1178      1234      1212      1380      1394
      968       911       973       922       987       924       932       967
      966      1003      1037      1056      1088      1140      1190      1300
    41862     38194     32580     25382     18407     12485      7818      4992
      936       932       896       858       916       969       930       925
     1390      1386      1491      1566      1717      1687      1688      1690
     1207      1086      1114      1005      1040      1077      1137      1092
     2859      2055      1583      1314      1114      1072      1005       962
      896       906       920       928       910       848       884       840
     1048      1048      1090      1172      1175      1220      1231      1356
     2154      1618      1375      1271      1230      1125      1097      1130
     2502      3034      3600      4215      5306      6214      7266      7917
      965       970       962       926       930       984      1017       944
      954       938       977       947       927       955       929       930
     2753      2630      2416      2132      1810      1507      1307      1273
     1398      1205      1079      1091      1031      1061      1054      1016
      980       987       962      1036       985       983       981      1006
     1081      1026      1005      1070      1066      1105      1086      1094
     1583      1680      1842      1977      2208      2547      3080      3820
     7254      6972      7215      8015      9377     11901     14326     16416
     2555      2788      3010      3139      3051      2873      2762      2416
     1336      1446      1595      1739      1900      2123      2323      2519
     1089      1109      1066      1094      1094      1069      1093      1126
     5030      5424      5511      5245      4732      4319      3918      3293
     1111      1098      1154      1123      1146      1190      1169      1247
     1399      1336      1359      1414      1478      1652      1793      1964
     1041      1040       993      1083      1021      1068      1111      1019
     8858      8569      7749      7166      5921      4977      3916      3168
      963       942       972      1015       962       961       976       937
      962       984       966       983       947       948       969       897
      969       947       914      1046       996       996      1029      1055
     1283      1413      1381      1355      1266      1290      1204      1261
     2459      2684      2897      2919      2822      2714      2569      2341
     1124      1038      1024       979       989       996       983       959
     1244      1195      1214      1184      1217      1176      1186      1166
      930       916       987       959       947       922       944       855
     1162      1212      1325      1473      1489      1472      1658      1608
      955      1001       991      1038      1038      1017      1181      1151
     1024      1007      1053      1092      1023      1120      1164      1293
      999       980      1023      1009       980      1005       962      1009
      922       780       901       849       884       896       877       876
     1275      1222      1355      1351      1354      1352      1332      1284
      842       848       810       836       766       786       786       777
      733       734       753       757       769       751       819       783
     1140      1198      1241      1196      1313      1203      1193      1102
     1556      1731      1860      1983      1974      1996      1969      1931
      758       753       724       755       732       754       805       736
     3588      3318      3008      2839      2783      2455      2136      1809
      837       850       798       731       796       744       743       738
      785       765       777       801       758       811       776       844
     5645      4932      4383      3937      3423      2750      2146      1658
      843       834       831       813       810       777       764       815
      697       679       664       638       667       670       673       638
      740       800       746       890       935      1006      1105      1309
     2560      2281      2034      1852      1658      1325      1142      1004
      710       724       758       806       822       902      1071      1232
      663       648       611       617       662       592       626       599
     1437      1364      1292      1158      1127       942       866       853
     2662      2802      3207      3279      3025      2797      2532      2404
      627       640       624       650       620       606       587       566
      587       577       522       545       550       552       557       568
      723       723       728       671       724       740       770       803
      614       579       559       566       549       602       559       572
      605       614       592       652       704       693       821       915
      926       822       796       722       710       631       596       571
      637       617       576       601       567       513       539       556
     1770      1790      1702      1733      1864      1914      1981      1957
      773       759       727       757       770       770       776       822
      733       825       927      1091      1013      1021      1014      1024
      720       731       833       771       837       849       848       823
      744       792       801       695       748       707       715       712
     1101      1110      1188      1230      1183      1254      1301      1327
      633       650       627       553       608       577       561       547
      753       841       838       863       941       906       951       956
     1350      1365      1253      1178      1152      1069      1008       950
     1760      1677      1508      1324      1147      1076       872       850
      875       974       985       914       864       872       824       847
      613       610       626       637       577       671       630       607
      696       764       747       839       864      1018      1082      1170
      707       778       648       653       742       646       656       687
      783       861       867       949      1165      1434      1638      1996
     1095       978       973       970       972       867       806       890
     1729      1653      1525      1413      1298      1193      1111      1029
      917       854       910       983      1066      1105      1121      1140
      925       913       926       827       788       730       722       727
      528       426       521       455       492       485       488       494
     1006      1113      1203      1303      1376      1397      1439      1442
      617       657       649       686       708       730       693       757
     1256      1229      1287      1225      1137      1114      1101       990
      764       734       706       756       697       671       633       669
      622

File: sample4.uxd
; C:\httpd\HtDocs\course\content\week-1\sample4.raw - (Diffrac AT V1) File converted by XCH V1.0
_FILEVERSION=1
_SAMPLE='DM1'
_WL1=1.540560
_WL2=1.544430
_WL3=1.392600
_WLRATIO=0.514000
_ANODE='Cu'
; (Data for Range number 1)
_DRIVE='COUPLED'
_STEPTIME=15
_STEPSIZE=0.020000
_STEPMODE='C'
_START=4.990000
_2THETA=4.990000
_THETA=0.000000
_KHI=0.000000
_PHI=0.000000
_TEMPERATURE=-17
_COUNTS
     1926      1984      2001      1853      1920      1767      1902      1920
     1671      1688      1660      1648      1568      1607      1637      1560
     1469      1455      1441      1461      1534      1471      1458      1447
     1356      1361      1348      1362      1296      1301      1294      1328
     1199      1181      1213      1128      1130      1148      1189      1171
     1094      1072      1071      1055      1064      1130      1030      1125
     1821      1969      2064      2219      2572      2859      3114      3191
    65095     55508     44508     32148     21823     13289      6895      3056
      869       841       828       823       848       792       796       847
      743       759       795       710       709       710       711       730
      720       685       735       776       715       677       726       692
      663       628       662       629       682       709       698       655
     3015      3350      3754      4293      4583      5416      6580      8061
      786       822       753       800       800       828       852       862
      682       640       682       659       717       791       801       838
      597       572       555       559       574       538       529       579
      517       526       493       571       530       503       535       480
      460       497       491       487       484       525       496       456
      476       493       480       469       458       465       488       483
      488       529       518       549       566       577       630       629
     1130       902       638       598       530       479       533       502
      684       653       736       790       953       997      1078      1241
      596       569       505       496       511       476       478       462
     3298      3774      4275      5092      5435      5573      5680      5192
      504       481       535       482       511       570       564       572
      837       933      1060      1275      1482      1681      2043      2504
     3041      1946      1313       985       850       740       702       643
      433       452       455       453       453       475       455       419
      405       398       440       418       426       400       457       452
      778       945      1073      1193      1458      1668      1808      1890
     1462      1705      1982      2415      3076      3804      5045      6254
      694       648       707       608       623       660       690       670
    19474     17582     14803     12466     10065      7706      5570      4021
     2951      3758      4550      5169      6050      6189      5841      5416
      889       722       712       659       648       652       622       648
    13857     11477      9195      6608      4658      3194      2123      1588
     4896      3802      2689      1958      1554      1326      1311      1501
      723       720       716       707       739       733       853       786
     1958      2468      3267      4133      5376      6715      8095      9718
      578       584       572       512       565       579       557       593
      548       575       537       555       523       510       560       555
     5823      4295      3036      2261      1750      1281       945       744
      733       738       969      1041      1336      1723      2120      2544
      497       500       483       471       489       461       488       526
      568       581       646       680       684       676       698       694
      555       536       606       626       727       815       872       942
      521       529       572       522       580       577       606       576
     2594      1913      1412      1059       848       750       780       775
     3492      3391      2987      2656      2120      1818      1396      1202
      816       898      1130      1303      1506      1624      1772      1872
     6092      5329      4240      3174      2342      1649      1282      1050
      830       884      1005       961      1037       990       917       885
     6195      4724      3654      2821      2143      1696      1422      1356
      864       825       898       849       806       795       749       707
     1332      1439      1746      1767      1821      1812      1962      2311
      715       688       680       696       707       660       608       594
     1957      1705      1534      1286      1081       898       737       729
     4232      4128      3876      3739      3444      3025      2556      2175
     8744      8225      6978      5756      4714      3882      3210      2749
      428       419       456       448       413       445       418       460
     2455      2439      2389      2344      2269      2199      2058      1967
      641       581       615       619       580       599       529       500
      419       414       396       418       392       367       369       378
      690       686       748       728       737       816       900      1025
      458       445       471       519       488       542       557       553
     1933      1644      1269      1058       920       874       920       930
      549       516       475       403       400       395       376       386
      625       642       605       531       506       475       512       492
     1234      1160      1118       954      1027      1089      1182      1392
     1311      1693      2307      2847      3434      3784      3907      3786
      711       913      1198      1504      1705      2012      2100      2244
      428       421       400       415       473       501       529       574
      566       504       490       452       464       434       422       357
      630       650       667       685       710       784       808       908
      605       589       534       493       512       436       394       388
      520       504       493       443       456       441       372       394
     2000      1997      1775      1603      1586      1484      1573      1571
      330       366       339       379       352       381       421       365
      624       704       755       702       694       684       630       613
      621       627       637       602       647       618       626       665
     1809      2367      3054      3474      3455      3457      3312      3231
     2096      1996      1731      1611      1474      1395      1066       953
      550       674       727       810       946      1123      1309      1413
     1360      1310      1224      1124      1081       997       915       782
      818       788       772       812       762       818       940      1128
      471       477       481       481       504       548       608       635
      739       770       712       707       703       689       620       616
      728       779       921      1129      1390      1888      2422      2917
      506       468       534       544       576       642       627       685
      594       645       633       589       635       682       707       747
      666       706       693       734       772       859       829       819
     1011       897       864       740       603       533       506       445
      653       573       587       608       636       642       644       631
     1537      1445      1500      1427      1532      1499      1576      1495
     1447      1394      1288      1228      1143       889       748       668
      556       470       479       523       489       487       458       444
      486       479       553       554       517       579       582       650
      568       621       574       552       545       511       538       495
      688       661       575       545       551       466       434       395
      758       862       851       853       829       810       742       656
      567       498       461       427       427       411       369       390
     1399      1329      1293      1163      1075      1055      1098      1089
     1230      1118      1073      1056      1019      1108      1039       948
     3278      3542      3520      3312      2886      2489      2161      1836
      615       670       734       818       866       960       963       911
     1371      1349      1312      1333      1368      1425      1622      1579
      454       449       416       416       381       356       397       407
      803       731       735       708       592       609       593       529
      669       679       602       627       664       700       803       834
      364       377       398       403       435       409       424       484
     1294      1197      1035      1017       994       917       852       826
      476       477       446       419       371       403       416       390
      369       374       340       369       338       343       367       340
      382